downbox,targettest,corrAns,upbox,rightbox,leftbox,task2.thisRepN,task2.thisTrialN,task2.thisN,task2.thisIndex,task1.thisRepN,task1.thisTrialN,task1.thisN,task1.thisIndex,start.keys,start.rt,answer2.keys,answer2.corr,answer2.rt,answer1.keys,answer1.corr,answer1.rt,date,frameRate,expName,session,participant,
,,,,,,,,,,,,,,return,6.02863653264,,,,,,,2015_Dec_16_1527,284.027972692,test1,001,01b,
,,,,,,,,,,,,,,return,5.19243861572,left,1,0.816528385829,,,,2015_Dec_16_1527,284.027972692,test1,001,01b,
green,red,left,yellow,red,blue,,,,,0,0,0,17,,,,,,left,1,0.94132696353,2015_Dec_16_1527,284.027972692,test1,001,01b,
red,yellow,down,yellow,blue,green,,,,,0,1,1,8,,,,,,down,1,1.09635933706,2015_Dec_16_1527,284.027972692,test1,001,01b,
yellow,yellow,up,green,red,blue,,,,,0,2,2,31,,,,,,up,1,1.04367371176,2015_Dec_16_1527,284.027972692,test1,001,01b,
blue,yellow,down,yellow,green,red,,,,,0,3,3,6,,,,,,down,1,0.920294032447,2015_Dec_16_1527,284.027972692,test1,001,01b,
yellow,red,down,red,blue,green,,,,,0,4,4,5,,,,,,down,1,0.676903073811,2015_Dec_16_1527,284.027972692,test1,001,01b,
green,blue,left,yellow,blue,red,,,,,0,5,5,23,,,,,,up,0,1.14233126,2015_Dec_16_1527,284.027972692,test1,001,01b,
green,green,up,yellow,blue,red,,,,,0,6,6,24,,,,,,up,1,1.27000260169,2015_Dec_16_1527,284.027972692,test1,001,01b,
blue,yellow,right,red,green,yellow,,,,,0,7,7,43,,,,,,right,1,0.761652979738,2015_Dec_16_1527,284.027972692,test1,001,01b,
blue,green,left,red,green,yellow,,,,,0,8,8,13,,,,,,up,0,1.13396447525,2015_Dec_16_1527,284.027972692,test1,001,01b,
red,blue,left,green,blue,yellow,,,,,0,9,9,21,,,,,,left,1,0.72679709753,2015_Dec_16_1527,284.027972692,test1,001,01b,
blue,blue,up,red,green,yellow,,,,,0,10,10,34,,,,,,left,0,1.28320352161,2015_Dec_16_1527,284.027972692,test1,001,01b,
green,yellow,left,red,yellow,blue,,,,,0,11,11,20,,,,,,left,1,0.613043984569,2015_Dec_16_1527,284.027972692,test1,001,01b,
red,red,up,blue,green,yellow,,,,,0,12,12,28,,,,,,up,1,0.853596184021,2015_Dec_16_1527,284.027972692,test1,001,01b,
red,blue,down,blue,green,yellow,,,,,0,13,13,10,,,,,,down,1,0.918094306857,2015_Dec_16_1527,284.027972692,test1,001,01b,
yellow,blue,down,blue,red,green,,,,,0,14,14,11,,,,,,down,1,0.872267064715,2015_Dec_16_1527,284.027972692,test1,001,01b,
blue,red,down,red,green,yellow,,,,,0,15,15,4,,,,,,down,1,0.868521403936,2015_Dec_16_1527,284.027972692,test1,001,01b,
yellow,yellow,up,red,blue,green,,,,,0,16,16,32,,,,,,left,0,1.07850360916,2015_Dec_16_1527,284.027972692,test1,001,01b,
blue,yellow,left,green,yellow,red,,,,,0,17,17,19,,,,,,left,1,0.773998646866,2015_Dec_16_1527,284.027972692,test1,001,01b,
blue,red,right,yellow,green,red,,,,,0,18,18,39,,,,,,right,1,0.627439563686,2015_Dec_16_1527,284.027972692,test1,001,01b,
red,yellow,left,blue,yellow,green,,,,,0,19,19,18,,,,,,left,1,0.709068727228,2015_Dec_16_1527,284.027972692,test1,001,01b,
yellow,green,down,green,blue,red,,,,,0,20,20,0,,,,,,down,1,0.836261435314,2015_Dec_16_1527,284.027972692,test1,001,01b,
yellow,blue,left,red,blue,green,,,,,0,21,21,22,,,,,,left,1,1.19238792932,2015_Dec_16_1527,284.027972692,test1,001,01b,
red,red,up,yellow,blue,green,,,,,0,22,22,29,,,,,,up,1,0.660582373901,2015_Dec_16_1527,284.027972692,test1,001,01b,
blue,green,down,green,red,yellow,,,,,0,23,23,2,,,,,,down,1,1.03168156622,2015_Dec_16_1527,284.027972692,test1,001,01b,
green,yellow,right,blue,red,yellow,,,,,0,24,24,44,,,,,,right,1,0.769923203687,2015_Dec_16_1527,284.027972692,test1,001,01b,
blue,red,left,green,red,yellow,,,,,0,25,25,15,,,,,,left,1,0.516263116311,2015_Dec_16_1527,284.027972692,test1,001,01b,
green,yellow,down,yellow,red,blue,,,,,0,26,26,7,,,,,,down,1,1.02884665664,2015_Dec_16_1527,284.027972692,test1,001,01b,
red,green,right,blue,yellow,green,,,,,0,27,27,36,,,,,,right,1,0.469349645373,2015_Dec_16_1527,284.027972692,test1,001,01b,
blue,blue,up,yellow,red,green,,,,,0,28,28,35,,,,,,up,1,0.932796570778,2015_Dec_16_1527,284.027972692,test1,001,01b,
yellow,green,left,blue,green,red,,,,,0,29,29,14,,,,,,left,1,1.36814173714,2015_Dec_16_1527,284.027972692,test1,001,01b,
red,green,left,yellow,green,blue,,,,,0,30,30,12,,,,,,left,1,1.04640853174,2015_Dec_16_1527,284.027972692,test1,001,01b,
green,red,right,blue,yellow,red,,,,,0,31,31,41,,,,,,right,1,0.551769901711,2015_Dec_16_1527,284.027972692,test1,001,01b,
red,yellow,right,green,blue,yellow,,,,,0,32,32,42,,,,,,right,1,0.658555559512,2015_Dec_16_1527,284.027972692,test1,001,01b,
yellow,green,right,red,blue,green,,,,,0,33,33,38,,,,,,right,1,1.23862387066,2015_Dec_16_1527,284.027972692,test1,001,01b,
blue,blue,up,green,yellow,red,,,,,0,34,34,33,,,,,,up,1,0.791748510768,2015_Dec_16_1527,284.027972692,test1,001,01b,
green,blue,right,red,yellow,blue,,,,,0,35,35,47,,,,,,right,1,0.592047624683,2015_Dec_16_1527,284.027972692,test1,001,01b,
yellow,red,left,blue,red,green,,,,,0,36,36,16,,,,,,right,0,1.09739552106,2015_Dec_16_1527,284.027972692,test1,001,01b,
yellow,yellow,up,blue,green,red,,,,,0,37,37,30,,,,,,up,1,0.434760347965,2015_Dec_16_1527,284.027972692,test1,001,01b,
yellow,red,right,green,blue,red,,,,,0,38,38,40,,,,,,left,0,0.663314948288,2015_Dec_16_1527,284.027972692,test1,001,01b,
red,blue,right,yellow,green,blue,,,,,0,39,39,45,,,,,,right,1,0.48438714529,2015_Dec_16_1527,284.027972692,test1,001,01b,
red,green,down,green,yellow,blue,,,,,0,40,40,1,,,,,,left,0,1.11082773778,2015_Dec_16_1527,284.027972692,test1,001,01b,
green,blue,down,blue,yellow,red,,,,,0,41,41,9,,,,,,down,1,0.917041441266,2015_Dec_16_1527,284.027972692,test1,001,01b,
green,green,up,blue,red,yellow,,,,,0,42,42,26,,,,,,up,1,1.07405186758,2015_Dec_16_1527,284.027972692,test1,001,01b,
green,green,up,red,yellow,blue,,,,,0,43,43,25,,,,,,left,0,1.33504736772,2015_Dec_16_1527,284.027972692,test1,001,01b,
green,red,down,red,yellow,blue,,,,,0,44,44,3,,,,,,down,1,1.28666751999,2015_Dec_16_1527,284.027972692,test1,001,01b,
red,red,up,green,yellow,blue,,,,,0,45,45,27,,,,,,down,0,1.12735439129,2015_Dec_16_1527,284.027972692,test1,001,01b,
blue,green,right,yellow,red,green,,,,,0,46,46,37,,,,,,right,1,0.785427146802,2015_Dec_16_1527,284.027972692,test1,001,01b,
yellow,blue,right,green,red,blue,,,,,0,47,47,46,,,,,,right,1,1.01642752631,2015_Dec_16_1527,284.027972692,test1,001,01b,
